Folder: echem

File: mrgcv_6.dta
EXPLAIN
TAG	CV
TITLE	LABEL	Cyclic Voltammetry	Test &Identifier
DATE	LABEL	8/24/2015	Date
TIME	LABEL	18:41:10	Time
NOTES	NOTES	1	&Notes...

PSTAT	PSTAT	REF3000-21113	Potentiostat
CHANNEL	IQUANT	NIL	Channel No.
VINIT	POTEN	0.00000E+000	T	Initial &E (V)
VLIMIT1	POTEN	1.30000E+000	F	Scan Limit &1 (V)
VLIMIT2	POTEN	0.00000E+000	F	Scan Limit &2 (V)
VFINAL	POTEN	0.00000E+000	T	Final &E (V)
SCANRATE	QUANT	9.99998E+001	&Scan Rate (mV/s)
STEPSIZE	QUANT	1.00000E+000	St&ep Size (mV)
CYCLES	IQUANT	2	C&ycles (#)
IMODE	SELECTOR	1	I/E Range &Mode
IRANGE	QUANT	1.70000E+004	&Max Current (mA)
AREA	QUANT	1.00000E+000	Electrode &Area (cm^2)
ELECTRODETYPE	SELECTOR	0	Electrode Type
STRIPPING	TOGGLE	F	Used for Stripping
POLARITY	TOGGLE	F	Signal Polarity
CONDIT	TWOPARAM	F	1.50000E+001	0.00000E+000	Conditionin&g	Time(s)	E(V)
DELAY	TWOPARAM	T	5.00000E+000	0.00000E+000	Init. De&lay	Time(s)	Stab.(mV/s)
EQDELAY	QUANT	0.00000E+000	Equil. &Time (s)
IRCOMP	SELECTOR	0	IRCom&p
PFCOR	QUANT	5.00000E+001	PF Corr. (ohm)
SAMPLINGMODE	SELECTOR	1	Sampling &Mode
OCVCURVE	TABLE	19
	Pt	T	Vf	Vm	Ach	Over
	#	s	V vs. Ref.	V	V	bits
	0	0.258333	7.86012E-001	7.86012E-001	1.46289E-003	...........
	1	0.516667	7.86008E-001	7.85788E-001	1.47215E-003	...........
	2	0.775	7.85987E-001	7.85859E-001	1.47679E-003	...........
	3	1.03333	7.85947E-001	7.85988E-001	1.46235E-003	...........
	4	1.29167	7.85915E-001	7.86093E-001	1.46222E-003	...........
	5	1.55	7.85919E-001	7.85857E-001	1.46129E-003	...........
	6	1.80833	7.85942E-001	7.85773E-001	1.42712E-003	...........
	7	2.06667	7.85940E-001	7.85881E-001	1.44572E-003	...........
	8	2.325	7.85910E-001	7.85988E-001	1.42339E-003	...........
	9	2.58333	7.85889E-001	7.86047E-001	1.44985E-003	...........
	10	2.84167	7.85902E-001	7.85776E-001	1.43925E-003	...........
	11	3.1	7.85922E-001	7.85777E-001	1.43255E-003	...........
	12	3.35833	7.85912E-001	7.85896E-001	1.42869E-003	...........
	13	3.61667	7.85881E-001	7.86001E-001	1.43785E-003	...........
	14	3.875	7.85869E-001	7.85898E-001	1.41139E-003	...........
	15	4.13333	7.85883E-001	7.85750E-001	1.41599E-003	...........
	16	4.39167	7.85891E-001	7.85805E-001	1.41479E-003	...........
	17	4.65	7.85872E-001	7.85897E-001	1.44782E-003	...........
	18	4.90833	7.85850E-001	7.86013E-001	1.46599E-003	...........
EOC	QUANT	0.78585	Open Circuit (V)
PSTATMODEL	IQUANT	6	Pstat Model
PSTATSECTION	LABEL	REF3000-21113	Pstat Section
PSTATSERIALNO	LABEL	21113	Pstat Serial Number
CTRLMODE	IQUANT	1	Control Mode
IESTAB	IQUANT	2	I/E Stability
CASPEED	IQUANT	2	Control Amp Speed
CONVENTION	IQUANT	1	Current Convention
ICHRANGE	IQUANT	2	Ich Range
ICHRANGEMODE	TOGGLE	T	Ich Auto Range
ICHOFFSETENABLE	TOGGLE	F	Ich Offset Enable
ICHOFFSET	QUANT	0	Ich Offset (V)
ICHFILTER	IQUANT	2	Ich Filter
VCHRANGE	IQUANT	2	Vch Range
VCHRANGEMODE	TOGGLE	T	Vch Auto Range
VCHOFFSETENABLE	TOGGLE	F	Vch Offset Enable
VCHOFFSET	QUANT	0	Vch Offset (V)
VCHFILTER	IQUANT	2	Vch Filter
ACHRANGE	IQUANT	2	Ach Range
ACHOFFSETENABLE	TOGGLE	F	Ach Offset Enable
ACHOFFSET	QUANT	0	Ach Offset (V)
ACHFILTER	IQUANT	1	Ach Filter
IERANGELOWERLIMIT	IQUANT	10	I/E Range Lower Limit
IERANGEMODE	TOGGLE	F	I/E AutoRange
IERANGE	IQUANT	13	I/E Range
POSFEEDENABLE	TOGGLE	F	Positive Feedback IR Comp
POSFEEDRESISTANCE	QUANT	0	Positive Feedback Resistance (ohm)
ACHSELECT	IQUANT	0	Ach Select
CABLEID	IQUANT	14	Cable ID
DCCALDATE	LABEL	1/12/2015	DC Calibration Date
ACCALDATE	LABEL	6/23/2015	AC Calibration Date
THERMOSELECT	IQUANT	1	Thermo Select
FRAMEWORKVERSION	QUANT	6.25	Framework Version
INSTRUMENTVERSION	LABEL	3.28	Instrument Version
BOOSTERDCCALDATE	LABEL	6/23/2015	Booster DC Calibration Date
CURVE1	TABLE
	Pt	T	Vf	Im	Vu	Sig	Ach	IERange	Over
	#	s	V vs. Ref.	A	V	V	V	#	bits
	0	0.01	7.85180E-001	-1.17452E-002	0.00000E+000	7.85850E-001	1.02409E-003	13	...........
	17	0.18	8.02160E-001	1.89290E-001	0.00000E+000	8.02850E-001	1.02993E-003	13	...........
	34	0.35	8.19145E-001	3.77716E-001	0.00000E+000	8.19850E-001	1.04159E-003	13	...........
	51	0.52	8.36066E-001	5.58813E-001	0.00000E+000	8.36850E-001	1.02993E-003	13	...........
	68	0.69	8.53087E-001	7.30958E-001	0.00000E+000	8.53850E-001	1.03576E-003	13	...........
	85	0.86	8.69971E-001	9.03061E-001	0.00000E+000	8.70850E-001	1.03326E-003	13	...........
	102	1.03	8.87055E-001	1.08203E+000	0.00000E+000	8.87850E-001	1.03409E-003	13	...........
	119	1.2	9.03981E-001	1.25188E+000	0.00000E+000	9.04850E-001	1.02993E-003	13	...........
	136	1.37	9.20940E-001	1.40455E+000	0.00000E+000	9.21850E-001	1.02493E-003	13	...........
	153	1.54	9.37953E-001	1.61184E+000	0.00000E+000	9.38850E-001	1.03243E-003	13	...........
	170	1.71	9.54951E-001	1.79893E+000	0.00000E+000	9.55850E-001	1.02993E-003	13	...........
	187	1.88	9.71893E-001	1.93138E+000	0.00000E+000	9.72850E-001	1.02576E-003	13	...........
	204	2.05	9.88790E-001	2.05787E+000	0.00000E+000	9.89850E-001	1.01909E-003	13	...........
	221	2.22	1.00576E+000	2.21189E+000	0.00000E+000	1.00685E+000	1.03743E-003	13	...........
	238	2.39	1.02273E+000	2.33569E+000	0.00000E+000	1.02385E+000	1.02993E-003	13	...........
	255	2.56	1.03978E+000	2.42892E+000	0.00000E+000	1.04085E+000	1.03576E-003	13	...........
	272	2.73	1.05672E+000	2.79629E+000	0.00000E+000	1.05785E+000	1.03243E-003	13	...........
	289	2.9	1.07364E+000	3.04635E+000	0.00000E+000	1.07485E+000	1.02993E-003	13	...........
	306	3.07	1.09067E+000	3.10225E+000	0.00000E+000	1.09185E+000	1.04243E-003	13	...........
	323	3.24	1.10759E+000	3.10917E+000	0.00000E+000	1.10885E+000	1.04743E-003	13	...........
	340	3.41	1.12468E+000	3.17674E+000	0.00000E+000	1.12585E+000	1.03243E-003	13	...........
	357	3.58	1.14160E+000	3.20394E+000	0.00000E+000	1.14285E+000	1.03076E-003	13	...........
	374	3.75	1.15855E+000	3.21243E+000	0.00000E+000	1.15985E+000	1.02993E-003	13	...........
	391	3.92	1.17553E+000	3.95850E+000	0.00000E+000	1.17685E+000	1.02076E-003	13	...........
	408	4.09	1.19256E+000	4.31358E+000	0.00000E+000	1.19385E+000	1.03909E-003	13	...........
	425	4.26	1.20952E+000	4.23027E+000	0.00000E+000	1.21085E+000	1.02743E-003	13	...........
	442	4.43	1.22652E+000	4.03115E+000	0.00000E+000	1.22785E+000	1.02909E-003	13	...........
	459	4.6	1.24334E+000	3.96555E+000	0.00000E+000	1.24485E+000	1.05243E-003	13	...........
	476	4.77	1.26045E+000	3.87376E+000	0.00000E+000	1.26185E+000	1.04076E-003	13	...........
	493	4.94	1.27749E+000	3.77233E+000	0.00000E+000	1.27885E+000	1.05076E-003	13	...........
	510	5.11	1.29435E+000	5.07915E+000	0.00000E+000	1.29585E+000	1.03743E-003	13	...........
	527	5.28	1.28540E+000	5.24827E+000	0.00000E+000	1.28685E+000	1.03909E-003	13	...........
	544	5.45	1.26838E+000	4.66496E+000	0.00000E+000	1.26985E+000	1.02826E-003	13	...........
	561	5.62	1.25147E+000	4.00480E+000	0.00000E+000	1.25285E+000	1.02493E-003	13	...........
	578	5.79	1.23449E+000	3.62982E+000	0.00000E+000	1.23585E+000	1.03993E-003	13	...........
	595	5.96	1.21754E+000	3.30181E+000	0.00000E+000	1.21885E+000	1.03993E-003	13	...........
	612	6.13	1.20062E+000	2.98383E+000	0.00000E+000	1.20185E+000	1.02826E-003	13	...........
	629	6.3	1.18355E+000	3.72028E+000	0.00000E+000	1.18485E+000	1.03909E-003	13	...........
	646	6.47	1.16650E+000	3.86462E+000	0.00000E+000	1.16785E+000	1.03826E-003	13	...........
	663	6.64	1.14961E+000	3.49521E+000	0.00000E+000	1.15085E+000	1.05576E-003	13	...........
	680	6.81	1.13267E+000	3.04218E+000	0.00000E+000	1.13385E+000	1.03076E-003	13	...........
	697	6.98	1.11565E+000	2.77944E+000	0.00000E+000	1.11685E+000	1.03159E-003	13	...........
	714	7.15	1.09869E+000	2.53217E+000	0.00000E+000	1.09985E+000	1.04409E-003	13	...........
	731	7.32	1.08173E+000	2.27718E+000	0.00000E+000	1.08285E+000	1.01826E-003	13	...........
	748	7.49	1.06474E+000	2.51824E+000	0.00000E+000	1.06585E+000	1.04326E-003	13	...........
	765	7.66	1.04774E+000	2.56669E+000	0.00000E+000	1.04885E+000	1.02909E-003	13	...........
	782	7.83	1.03069E+000	2.32123E+000	0.00000E+000	1.03185E+000	1.03159E-003	13	...........
	799	8	1.01374E+000	2.01968E+000	0.00000E+000	1.01485E+000	1.03243E-003	13	...........
	816	8.17	9.96794E-001	1.83267E+000	0.00000E+000	9.97850E-001	1.03493E-003	13	...........
	833	8.34	9.79902E-001	1.64239E+000	0.00000E+000	9.80850E-001	1.03409E-003	13	...........
	850	8.51	9.62886E-001	1.43821E+000	0.00000E+000	9.63850E-001	1.02659E-003	13	...........
	867	8.68	9.45826E-001	1.38281E+000	0.00000E+000	9.46850E-001	1.03743E-003	13	...........
	884	8.85	9.28910E-001	1.32186E+000	0.00000E+000	9.29850E-001	1.04159E-003	13	...........
	901	9.02	9.11937E-001	1.13538E+000	0.00000E+000	9.12850E-001	1.02493E-003	13	...........
	918	9.19	8.94940E-001	9.23171E-001	0.00000E+000	8.95850E-001	1.02659E-003	13	...........
	935	9.36	8.77943E-001	7.63627E-001	0.00000E+000	8.78850E-001	1.04159E-003	13	...........
	952	9.53	8.61004E-001	5.98836E-001	0.00000E+000	8.61850E-001	1.03159E-003	13	...........
	969	9.7	8.44006E-001	4.22060E-001	0.00000E+000	8.44850E-001	1.03076E-003	13	...........
	986	9.87	8.27058E-001	2.66287E-001	0.00000E+000	8.27850E-001	1.03909E-003	13	...........
	1003	10.04	8.10093E-001	1.23983E-001	0.00000E+000	8.10850E-001	1.03243E-003	13	...........
	1020	10.21	7.93082E-001	-4.89566E-002	0.00000E+000	7.93850E-001	1.02993E-003	13	...........
	1037	10.38	7.76199E-001	-2.31144E-001	0.00000E+000	7.76850E-001	1.02909E-003	13	...........
	1054	10.55	7.59152E-001	-4.05273E-001	0.00000E+000	7.59850E-001	1.02493E-003	13	...........
	1071	10.72	7.42216E-001	-5.82189E-001	0.00000E+000	7.42850E-001	1.05159E-003	13	...........
	1088	10.89	7.25208E-001	-7.60728E-001	0.00000E+000	7.25850E-001	1.04326E-003	13	...........
	1105	11.06	7.08168E-001	-9.43054E-001	0.00000E+000	7.08850E-001	1.03159E-003	13	...........
	1122	11.23	6.91211E-001	-1.12650E+000	0.00000E+000	6.91850E-001	1.02743E-003	13	...........
	1139	11.4	6.74302E-001	-1.30196E+000	0.00000E+000	6.74850E-001	1.02993E-003	13	...........
	1156	11.57	6.57305E-001	-1.47282E+000	0.00000E+000	6.57850E-001	1.03659E-003	13	...........
	1173	11.74	6.40243E-001	-1.66778E+000	0.00000E+000	6.40850E-001	1.02826E-003	13	...........
	1190	11.91	6.23336E-001	-1.86392E+000	0.00000E+000	6.23850E-001	1.02409E-003	13	...........
	1207	12.08	6.06380E-001	-2.04557E+000	0.00000E+000	6.06850E-001	1.05159E-003	13	...........
	1224	12.25	5.89458E-001	-2.23686E+000	0.00000E+000	5.89850E-001	1.07576E-003	13	...........
	1241	12.42	5.72410E-001	-2.46074E+000	0.00000E+000	5.72850E-001	1.03326E-003	13	...........
	1258	12.59	5.55415E-001	-2.63814E+000	0.00000E+000	5.55850E-001	1.02743E-003	13	...........
	1275	12.76	5.38461E-001	-2.78610E+000	0.00000E+000	5.38850E-001	1.06076E-003	13	...........
	1292	12.93	5.21532E-001	-2.99187E+000	0.00000E+000	5.21850E-001	1.03743E-003	13	...........
	1309	13.1	5.04398E-001	-3.20860E+000	0.00000E+000	5.04850E-001	1.02493E-003	13	...........
	1326	13.27	4.87483E-001	-3.39485E+000	0.00000E+000	4.87850E-001	1.02409E-003	13	...........
	1343	13.44	4.70594E-001	-3.61217E+000	0.00000E+000	4.70850E-001	1.02159E-003	13	...........
	1360	13.61	4.53590E-001	-3.91010E+000	0.00000E+000	4.53850E-001	1.03909E-003	13	...........
	1377	13.78	4.36673E-001	-4.09417E+000	0.00000E+000	4.36850E-001	1.05159E-003	13	...........
	1394	13.95	4.19654E-001	-4.20401E+000	0.00000E+000	4.19850E-001	1.04909E-003	13	...........
	1411	14.12	4.02625E-001	-4.41174E+000	0.00000E+000	4.02850E-001	1.06909E-003	13	...........
	1428	14.29	3.85780E-001	-4.64632E+000	0.00000E+000	3.85850E-001	1.03243E-003	13	...........
	1445	14.46	3.68755E-001	-4.82970E+000	0.00000E+000	3.68850E-001	1.02909E-003	13	...........
	1462	14.63	3.51840E-001	-5.10046E+000	0.00000E+000	3.51850E-001	1.04576E-003	13	...........
	1479	14.8	3.34777E-001	-5.52764E+000	0.00000E+000	3.34850E-001	1.03659E-003	13	...........
	1496	14.97	3.17792E-001	-5.71619E+000	0.00000E+000	3.17850E-001	1.02993E-003	13	...........
	1513	15.14	3.00802E-001	-5.75883E+000	0.00000E+000	3.00850E-001	1.03826E-003	13	...........
	1530	15.31	2.83901E-001	-5.94609E+000	0.00000E+000	2.83850E-001	1.02743E-003	13	...........
	1547	15.48	2.66880E-001	-6.18273E+000	0.00000E+000	2.66850E-001	1.02659E-003	13	...........
	1564	15.65	2.49937E-001	-6.34439E+000	0.00000E+000	2.49850E-001	1.05493E-003	13	...........
	1581	15.82	2.32893E-001	-6.68597E+000	0.00000E+000	2.32850E-001	1.02909E-003	13	...........
	1598	15.99	2.15940E-001	-7.30926E+000	0.00000E+000	2.15850E-001	1.03326E-003	13	...........
	1615	16.16	1.98960E-001	-7.49351E+000	0.00000E+000	1.98850E-001	1.03576E-003	13	...........
	1632	16.33	1.81982E-001	-7.42195E+000	0.00000E+000	1.81850E-001	1.03243E-003	13	...........
	1649	16.5	1.64996E-001	-7.55409E+000	0.00000E+000	1.64850E-001	1.04409E-003	13	...........
	1666	16.67	1.48033E-001	-7.77376E+000	0.00000E+000	1.47850E-001	1.03326E-003	13	...........
	1683	16.84	1.31042E-001	-7.89086E+000	0.00000E+000	1.30850E-001	1.02743E-003	13	...........
	1700	17.01	1.14093E-001	-8.31190E+000	0.00000E+000	1.13850E-001	1.07493E-003	13	...........
	1717	17.18	9.71383E-002	-9.22024E+000	0.00000E+000	9.68500E-002	1.02659E-003	13	...........
	1734	17.35	8.01633E-002	-9.39795E+000	0.00000E+000	7.98501E-002	1.04076E-003	13	...........
	1751	17.52	6.31696E-002	-9.16410E+000	0.00000E+000	6.28501E-002	1.03409E-003	13	...........
	1768	17.69	4.61915E-002	-9.20406E+000	0.00000E+000	4.58500E-002	1.02659E-003	13	...........
	1785	17.86	2.92161E-002	-9.38806E+000	0.00000E+000	2.88501E-002	1.03076E-003	13	...........
	1802	18.03	1.22300E-002	-9.43040E+000	0.00000E+000	1.18501E-002	1.02909E-003	13	...........
	1814	18.15	2.51402E-004	-9.51430E+000	0.00000E+000	-1.49965E-004	1.02326E-003	13	...........
CURVE2	TABLE
	Pt	T	Vf	Im	Vu	Sig	Ach	IERange	Over
	#	s	V vs. Ref.	A	V	V	V	#	bits
	1815	18.16	1.40636E-003	-9.53296E+000	0.00000E+000	1.00005E-003	1.02826E-003	13	...........
	1840	18.41	2.64111E-002	-1.03633E+001	0.00000E+000	2.60000E-002	1.03909E-003	13	...........
	1865	18.66	5.13453E-002	-9.38400E+000	0.00000E+000	5.10001E-002	1.04326E-003	13	...........
	1890	18.91	7.62824E-002	-8.55333E+000	0.00000E+000	7.60000E-002	1.02326E-003	13	...........
	1915	19.16	1.01232E-001	-8.03719E+000	0.00000E+000	1.01000E-001	1.02743E-003	13	...........
	1940	19.41	1.26201E-001	-7.78045E+000	0.00000E+000	1.26000E-001	1.03326E-003	13	...........
	1965	19.66	1.51203E-001	-8.14780E+000	0.00000E+000	1.51000E-001	1.02909E-003	13	...........
	1990	19.91	1.76121E-001	-7.27999E+000	0.00000E+000	1.76000E-001	1.02659E-003	13	...........
	2015	20.16	2.01075E-001	-6.72976E+000	0.00000E+000	2.01000E-001	1.03409E-003	13	...........
	2040	20.41	2.26023E-001	-6.25949E+000	0.00000E+000	2.26000E-001	1.03076E-003	13	...........
	2065	20.66	2.50986E-001	-6.16602E+000	0.00000E+000	2.51000E-001	1.02659E-003	13	...........
	2090	20.91	2.76010E-001	-6.09753E+000	0.00000E+000	2.76000E-001	1.02576E-003	13	...........
	2115	21.16	3.01081E-001	-5.39501E+000	0.00000E+000	3.01000E-001	1.02493E-003	13	...........
	2140	21.41	3.25916E-001	-4.99814E+000	0.00000E+000	3.26000E-001	1.02243E-003	13	...........
	2165	21.66	3.50903E-001	-4.57978E+000	0.00000E+000	3.51000E-001	1.04076E-003	13	...........
	2190	21.91	3.75901E-001	-4.46162E+000	0.00000E+000	3.76000E-001	1.03743E-003	13	...........
	2215	22.16	4.00809E-001	-4.21003E+000	0.00000E+000	4.01000E-001	1.03826E-003	13	...........
	2240	22.41	4.25664E-001	-3.68872E+000	0.00000E+000	4.26000E-001	1.02826E-003	13	...........
	2265	22.66	4.50670E-001	-3.37113E+000	0.00000E+000	4.51000E-001	1.02993E-003	13	...........
	2290	22.91	4.75672E-001	-3.00109E+000	0.00000E+000	4.76000E-001	1.02159E-003	13	...........
	2315	23.16	5.00712E-001	-2.83677E+000	0.00000E+000	5.01000E-001	1.03826E-003	13	...........
	2340	23.41	5.25588E-001	-2.54833E+000	0.00000E+000	5.26000E-001	1.03493E-003	13	...........
	2365	23.66	5.50576E-001	-2.18026E+000	0.00000E+000	5.51000E-001	1.04993E-003	13	...........
	2390	23.91	5.75532E-001	-1.90220E+000	0.00000E+000	5.76000E-001	1.02659E-003	13	...........
	2415	24.16	6.00533E-001	-1.59345E+000	0.00000E+000	6.01000E-001	1.02909E-003	13	...........
	2440	24.41	6.25474E-001	-1.40622E+000	0.00000E+000	6.26000E-001	1.02493E-003	13	...........
	2465	24.66	6.50416E-001	-1.14698E+000	0.00000E+000	6.51000E-001	1.02659E-003	13	...........
	2490	24.91	6.75400E-001	-8.78224E-001	0.00000E+000	6.76000E-001	1.03909E-003	13	...........
	2515	25.16	7.00306E-001	-6.34075E-001	0.00000E+000	7.01000E-001	1.05993E-003	13	...........
	2540	25.41	7.25358E-001	-3.85187E-001	0.00000E+000	7.26000E-001	1.07326E-003	13	...........
	2565	25.66	7.50327E-001	-1.88128E-001	0.00000E+000	7.51000E-001	1.05326E-003	13	...........
	2590	25.91	7.75287E-001	4.36660E-002	0.00000E+000	7.76000E-001	1.03159E-003	13	...........
	2615	26.16	8.00215E-001	2.82191E-001	0.00000E+000	8.01000E-001	1.04076E-003	13	...........
	2640	26.41	8.25143E-001	5.22028E-001	0.00000E+000	8.26000E-001	1.02909E-003	13	...........
	2665	26.66	8.50135E-001	7.63717E-001	0.00000E+000	8.51000E-001	1.03659E-003	13	...........
	2690	26.91	8.75140E-001	1.00396E+000	0.00000E+000	8.76000E-001	1.04243E-003	13	...........
	2715	27.16	9.00064E-001	1.23196E+000	0.00000E+000	9.01000E-001	1.03409E-003	13	...........
	2740	27.41	9.25026E-001	1.47910E+000	0.00000E+000	9.26000E-001	1.04826E-003	13	...........
	2765	27.66	9.49986E-001	1.70729E+000	0.00000E+000	9.51000E-001	1.03243E-003	13	...........
	2790	27.91	9.75067E-001	1.99663E+000	0.00000E+000	9.76000E-001	1.03159E-003	13	...........
[...]
	4471	44.72	5.73570E-002	-9.58642E+000	0.00000E+000	5.70000E-002	1.03326E-003	13	...........
	4479	44.8	6.53424E-002	-9.64289E+000	0.00000E+000	6.50001E-002	1.02743E-003	13	...........
	4487	44.88	7.33164E-002	-9.50106E+000	0.00000E+000	7.30001E-002	1.03243E-003	13	...........
	4495	44.96	8.12989E-002	-9.22034E+000	0.00000E+000	8.10000E-002	1.02659E-003	13	...........
	4503	45.04	8.92820E-002	-8.84148E+000	0.00000E+000	8.90000E-002	1.04076E-003	13	...........
	4511	45.12	9.72575E-002	-8.46809E+000	0.00000E+000	9.70001E-002	1.03826E-003	13	...........
	4519	45.2	1.05241E-001	-8.13300E+000	0.00000E+000	1.05000E-001	1.02409E-003	13	...........
	4527	45.28	1.13216E-001	-7.99229E+000	0.00000E+000	1.13000E-001	1.02743E-003	13	...........
	4535	45.36	1.21203E-001	-7.88445E+000	0.00000E+000	1.21000E-001	1.02826E-003	13	...........
	4543	45.44	1.29191E-001	-7.72836E+000	0.00000E+000	1.29000E-001	1.02826E-003	13	...........
	4551	45.52	1.37180E-001	-7.56938E+000	0.00000E+000	1.37000E-001	1.02909E-003	13	...........
	4559	45.6	1.45158E-001	-7.37966E+000	0.00000E+000	1.45000E-001	1.02243E-003	13	...........
	4567	45.68	1.53139E-001	-7.16872E+000	0.00000E+000	1.53000E-001	1.02076E-003	13	...........
	4575	45.76	1.61135E-001	-7.04175E+000	0.00000E+000	1.61000E-001	1.02659E-003	13	...........
	4583	45.84	1.69136E-001	-7.30646E+000	0.00000E+000	1.69000E-001	1.03659E-003	13	...........
	4591	45.92	1.77138E-001	-7.53683E+000	0.00000E+000	1.77000E-001	1.02826E-003	13	...........
	4599	46	1.85127E-001	-7.57121E+000	0.00000E+000	1.85000E-001	1.04326E-003	13	...........
	4607	46.08	1.93108E-001	-7.45882E+000	0.00000E+000	1.93000E-001	1.02826E-003	13	...........
	4615	46.16	2.01098E-001	-7.24029E+000	0.00000E+000	2.01000E-001	1.04576E-003	13	...........
	4623	46.24	2.09071E-001	-6.95413E+000	0.00000E+000	2.09000E-001	1.02743E-003	13	...........
	4631	46.32	2.17052E-001	-6.66613E+000	0.00000E+000	2.17000E-001	1.02076E-003	13	...........
	4639	46.4	2.25040E-001	-6.40868E+000	0.00000E+000	2.25000E-001	1.03326E-003	13	...........
	4647	46.48	2.33019E-001	-6.27623E+000	0.00000E+000	2.33000E-001	1.02826E-003	13	...........
	4655	46.56	2.40997E-001	-6.17685E+000	0.00000E+000	2.41000E-001	1.03243E-003	13	...........
	4663	46.64	2.48994E-001	-6.04469E+000	0.00000E+000	2.49000E-001	1.06659E-003	13	...........
	4671	46.72	2.56976E-001	-5.91215E+000	0.00000E+000	2.57000E-001	1.02576E-003	13	...........
	4679	46.8	2.64957E-001	-5.75571E+000	0.00000E+000	2.65000E-001	1.02493E-003	13	...........
	4687	46.88	2.72958E-001	-5.58295E+000	0.00000E+000	2.73000E-001	1.02826E-003	13	...........
	4695	46.96	2.80976E-001	-5.44885E+000	0.00000E+000	2.81000E-001	1.02659E-003	13	...........
	4703	47.04	2.88959E-001	-5.54447E+000	0.00000E+000	2.89000E-001	1.03993E-003	13	...........
	4711	47.12	2.96941E-001	-5.65453E+000	0.00000E+000	2.97000E-001	1.02743E-003	13	...........
	4719	47.2	3.04966E-001	-5.65337E+000	0.00000E+000	3.05000E-001	1.03076E-003	13	...........
	4727	47.28	3.12959E-001	-5.55750E+000	0.00000E+000	3.13000E-001	1.02409E-003	13	...........
	4735	47.36	3.20936E-001	-5.39247E+000	0.00000E+000	3.21000E-001	1.01826E-003	13	...........
	4743	47.44	3.28975E-001	-5.18118E+000	0.00000E+000	3.29000E-001	1.02743E-003	13	...........
	4751	47.52	3.36929E-001	-4.96417E+000	0.00000E+000	3.37000E-001	1.02576E-003	13	...........
	4759	47.6	3.44883E-001	-4.76586E+000	0.00000E+000	3.45000E-001	1.02493E-003	13	...........
	4767	47.68	3.52897E-001	-4.64678E+000	0.00000E+000	3.53000E-001	1.02826E-003	13	...........
	4775	47.76	3.60897E-001	-4.55065E+000	0.00000E+000	3.61000E-001	1.04826E-003	13	...........
	4783	47.84	3.68882E-001	-4.43580E+000	0.00000E+000	3.69000E-001	1.02826E-003	13	...........
	4791	47.92	3.76865E-001	-4.32034E+000	0.00000E+000	3.77000E-001	1.05576E-003	13	...........
	4799	48	3.84828E-001	-4.18901E+000	0.00000E+000	3.85000E-001	1.05159E-003	13	...........
	4807	48.08	3.92833E-001	-4.04620E+000	0.00000E+000	3.93000E-001	1.04326E-003	13	...........
	4815	48.16	4.00803E-001	-3.91162E+000	0.00000E+000	4.01000E-001	1.05993E-003	13	...........
	4823	48.24	4.08780E-001	-3.89289E+000	0.00000E+000	4.09000E-001	1.02409E-003	13	...........
	4831	48.32	4.16781E-001	-3.91268E+000	0.00000E+000	4.17000E-001	1.04159E-003	13	...........
	4839	48.4	4.24757E-001	-3.88414E+000	0.00000E+000	4.25000E-001	1.02743E-003	13	...........
	4847	48.48	4.32751E-001	-3.80091E+000	0.00000E+000	4.33000E-001	1.03326E-003	13	...........
	4855	48.56	4.40740E-001	-3.67552E+000	0.00000E+000	4.41000E-001	1.02659E-003	13	...........
	4863	48.64	4.48739E-001	-3.52180E+000	0.00000E+000	4.49000E-001	1.03243E-003	13	...........
	4871	48.72	4.56740E-001	-3.36325E+000	0.00000E+000	4.57000E-001	1.02743E-003	13	...........
	4879	48.8	4.64736E-001	-3.21373E+000	0.00000E+000	4.65000E-001	1.04409E-003	13	...........
	4887	48.88	4.72710E-001	-3.10834E+000	0.00000E+000	4.73000E-001	1.02743E-003	13	...........
	4895	48.96	4.80733E-001	-3.01732E+000	0.00000E+000	4.81000E-001	1.03326E-003	13	...........
	4903	49.04	4.88704E-001	-2.91619E+000	0.00000E+000	4.89000E-001	1.02159E-003	13	...........
	4911	49.12	4.96659E-001	-2.81535E+000	0.00000E+000	4.97000E-001	1.02243E-003	13	...........
	4919	49.2	5.04629E-001	-2.70496E+000	0.00000E+000	5.05000E-001	1.02409E-003	13	...........
	4927	49.28	5.12692E-001	-2.58824E+000	0.00000E+000	5.13000E-001	1.02826E-003	13	...........
	4935	49.36	5.20657E-001	-2.47135E+000	0.00000E+000	5.21000E-001	1.05909E-003	13	...........
	4943	49.44	5.28684E-001	-2.40454E+000	0.00000E+000	5.29000E-001	1.03159E-003	13	...........
	4951	49.52	5.36663E-001	-2.37101E+000	0.00000E+000	5.37000E-001	1.03909E-003	13	...........
	4959	49.6	5.44639E-001	-2.32263E+000	0.00000E+000	5.45000E-001	1.03159E-003	13	...........
	4967	49.68	5.52639E-001	-2.24846E+000	0.00000E+000	5.53000E-001	1.02659E-003	13	...........
	4975	49.76	5.60654E-001	-2.15094E+000	0.00000E+000	5.61000E-001	1.02243E-003	13	...........
	4983	49.84	5.68632E-001	-2.03911E+000	0.00000E+000	5.69000E-001	1.03743E-003	13	...........
	4991	49.92	5.76628E-001	-1.92368E+000	0.00000E+000	5.77000E-001	1.02243E-003	13	...........
	4999	50	5.84607E-001	-1.81212E+000	0.00000E+000	5.85000E-001	1.04576E-003	13	...........
	5007	50.08	5.92538E-001	-1.72266E+000	0.00000E+000	5.93000E-001	1.02243E-003	13	...........
	5015	50.16	6.00540E-001	-1.63974E+000	0.00000E+000	6.01000E-001	1.05409E-003	13	...........
	5023	50.24	6.08521E-001	-1.55247E+000	0.00000E+000	6.09000E-001	1.02993E-003	13	...........
	5031	50.32	6.16488E-001	-1.46574E+000	0.00000E+000	6.17000E-001	1.03576E-003	13	...........
	5039	50.4	6.24453E-001	-1.37523E+000	0.00000E+000	6.25000E-001	1.02243E-003	13	...........
	5047	50.48	6.32450E-001	-1.28113E+000	0.00000E+000	6.33000E-001	1.01826E-003	13	...........
	5055	50.56	6.40407E-001	-1.18680E+000	0.00000E+000	6.41000E-001	1.02743E-003	13	...........
	5063	50.64	6.48396E-001	-1.11216E+000	0.00000E+000	6.49000E-001	1.02243E-003	13	...........
	5071	50.72	6.56432E-001	-1.05623E+000	0.00000E+000	6.57000E-001	1.03743E-003	13	...........
	5079	50.8	6.64377E-001	-9.98392E-001	0.00000E+000	6.65000E-001	1.02243E-003	13	...........
	5087	50.88	6.72392E-001	-9.30159E-001	0.00000E+000	6.73000E-001	1.02243E-003	13	...........
	5095	50.96	6.80400E-001	-8.52055E-001	0.00000E+000	6.81000E-001	1.04493E-003	13	...........
	5103	51.04	6.88367E-001	-7.67434E-001	0.00000E+000	6.89000E-001	1.03743E-003	13	...........
	5111	51.12	6.96357E-001	-6.80525E-001	0.00000E+000	6.97000E-001	1.01993E-003	13	...........
	5119	51.2	7.04346E-001	-5.94674E-001	0.00000E+000	7.05000E-001	1.02576E-003	13	...........
	5127	51.28	7.12352E-001	-5.17046E-001	0.00000E+000	7.13000E-001	1.02909E-003	13	...........
	5135	51.36	7.20279E-001	-4.42049E-001	0.00000E+000	7.21000E-001	1.04659E-003	13	...........
	5143	51.44	7.28339E-001	-3.65782E-001	0.00000E+000	7.29000E-001	1.02826E-003	13	...........
	5151	51.52	7.36318E-001	-2.88842E-001	0.00000E+000	7.37000E-001	1.06076E-003	13	...........
	5159	51.6	7.44323E-001	-2.11018E-001	0.00000E+000	7.45000E-001	1.02909E-003	13	...........
	5167	51.68	7.52314E-001	-1.31340E-001	0.00000E+000	7.53000E-001	1.03909E-003	13	...........
	5175	51.76	7.60324E-001	-5.25966E-002	0.00000E+000	7.61000E-001	1.02159E-003	13	...........
	5183	51.84	7.68160E-001	2.12359E-002	0.00000E+000	7.69000E-001	1.03743E-003	13	...........
	5191	51.92	7.76214E-001	8.70588E-002	0.00000E+000	7.77000E-001	1.04993E-003	13	...........
	5199	52	7.84199E-001	1.53283E-001	0.00000E+000	7.85000E-001	1.02659E-003	13	...........
	5200	52.01	7.85292E-001	1.61900E-001	0.00000E+000	7.86000E-001	1.02409E-003	13	...........